Folder: EE535/Lab1

File: test1.csv
Wafer#1 11.3mils thick EE535,
WAVELENGTH (NM),ABS
181692398787878.78,0.868929,
181802582171012.72,0.87196,
181912899271844.66,0.875484,
182023350333940.5,0.878957,
182133935601458.06,0.882598,
182244655319148.9,0.885437,
182355509732360.1,0.889177,
182466499087035.88,0.892424,
182577623629719.84,0.895981,
182688883607556.38,0.900003,
182800279268292.66,0.903551,
182911810860280.66,0.907216,
183023478632478.62,0.910845,
183135282834453.25,0.914551,
183247223716381.4,0.918226,
183359301529052.0,0.922239,
183471516523867.78,0.9261,
183583868952847.5,0.930183,
183696359068627.44,0.934577,
183808987124463.5,0.938342,
183921753374233.12,0.942664,
184034658072437.06,0.946592,
184147701474201.47,0.950845,
184260883835279.66,0.955423,
184374205412054.1,0.959093,
184487666461538.44,0.963182,
184601267241379.3,0.967614,
184715008009858.28,0.972199,
184828889025893.94,0.976769,
184942910549043.8,0.981278,
185057072839506.16,0.985854,
185171376158122.28,0.991094,
185285820766378.25,0.995084,
185400406926406.9,1.00038,
185515134900990.1,1.00544,
185630004953560.38,1.01108,
185745017348203.22,1.01618,
185860172349659.0,1.02121,
185975470223325.03,1.0266,
186090911235257.6,1.03156,
186206495652173.9,1.037,
186322223741454.3,1.04292,
186438095771144.28,1.04871,
186554112009956.44,1.05498,
186670272727272.72,1.06124,
186786578193146.4,1.06817,
186903028678304.25,1.07389,
187019624454148.47,1.0802,
187136365792759.03,1.08669,
187253252966895.7,1.09381,
187370286249999.97,1.10041,
187487465916197.62,1.10785,
187604792240300.34,1.11437,
187722265497808.38,1.12193,
187839885964912.28,1.12839,
187957653918495.28,1.137,
188075569636135.5,1.14505,
188193633396107.97,1.1519,
188311845477386.9,1.16159,
188430206159648.0,1.16972,
188548715723270.44,1.18017,
188667374449339.2,1.18852,
188786182619647.34,1.19669,
188905140516698.16,1.20676,
189024248423707.44,1.2173,
189143506624605.66,1.22615,
189262915404040.4,1.23934,
189382475047378.38,1.2495,
189502185840707.97,1.26086,
189622048070841.22,1.27402,
189742062025316.44,1.28414,
189862227992400.25,1.29662,
189982546261089.97,1.31175,
190103017121116.03,1.32789,
190223640862944.16,1.34245,
190344417777777.75,1.35613,
190465348157560.34,1.37672,
190586432294977.75,1.39073,
190707670483460.53,1.40496,
190829063017186.5,1.42525,
190950610191082.8,1.4575,
191072312300828.53,1.47151,
191194169642857.12,1.48515,
191316182514358.62,1.51873,
191438351213282.22,1.54775,
191560676038338.66,1.57376,
191683157289002.53,1.61157,
191805795265515.03,1.64998,
191928590268886.03,1.64792,
192051542600896.84,1.69629,
192174652564102.56,1.72287,
192297920461834.5,1.8914,
192421346598202.8,1.75799,
192544931278098.9,1.83235,
192668674807197.94,1.78163,
192792577491961.4,1.81184,
192916639639639.62,1.8403,
193040861558274.3,1.7454,
193165243556701.0,2.82644,
193289785944551.9,1.84695,
193414489032258.03,1.73621,