Folder: EE535/Lab4

File: Perovskite_T_R.csv
Wavelength (nm),%T,%R
800,66.31987,6.26476
798,66.3668,6.0748
796,66.4179,5.89907
794,66.4459,5.72867
792,66.4646,5.56179
790,66.461,5.40721
788,66.4635,5.26425
786,66.4459,5.12789
784,66.4018,5.02116
782,66.3712,4.91365
780,66.2944,4.83027
778,66.1947,4.76828
776,66.0904,4.72119
774,65.944,4.6973
772,65.7894,4.7003
770,65.6077,4.7265
768,65.405,4.77489
766,65.1837,4.85457
764,64.9254,4.96199
762,64.6518,5.09843
760,64.3425,5.25669
758,64.0157,5.45
756,63.6841,5.66943
754,63.3003,5.9107
752,62.9233,6.18211
750,62.5206,6.47038
748,62.1189,6.78608
746,61.6943,7.12323
744,61.2529,7.46795
742,60.8088,7.82976
740,60.3842,8.2001
738,59.9365,8.56636
736,59.507,8.9398
734,59.0847,9.31286
732,58.6694,9.662
730,58.279,10.0084
728,57.9029,10.3205
726,57.5533,10.6226
724,57.2297,10.8804
722,56.9279,11.1015
720,56.6578,11.2926
718,56.4387,11.4267
716,56.2335,11.5278
714,56.08,11.5597
712,55.9606,11.5364
710,55.8634,11.4686
708,55.8164,11.3275
706,55.809,11.1247
704,55.8202,10.8781
702,55.8631,10.56
700,55.9215,10.1905
698,56.0172,9.79684
696,56.1095,9.33565
694,56.1936,8.8306
692,56.2927,8.32893
690,56.361,7.802423
688,56.4018,7.28444
686,56.4049,6.77852
684,56.3704,6.3064
682,56.2685,5.87989
680,56.0993,5.52463
678,55.861,5.24376
676,55.5277,5.06016
674,55.1248,4.9691
672,54.6338,4.98739
670,54.0596,5.1236
668,53.4068,5.37183
666,52.6744,5.71753
664,51.8883,6.17596
662,51.03,6.71573
660,50.156,7.32978
658,49.2338,7.98712
656,48.3085,8.6634
654,47.3684,9.3458
652,46.4423,9.99723
650,45.5237,10.5873
648,44.6461,11.1089
646,43.7885,11.5044
644,42.9619,11.764
642,42.1702,11.8595
640,41.3899,11.795
638,40.63,11.5252
636,39.861,11.0691
634,39.0722,10.4455
632,38.2215,9.6749
630,37.2995,8.80662
628,36.2521,7.89652
626,35.055,7.01642
624,33.7235,6.23601
622,32.2134,5.61847
620,30.554,5.24887
618,28.7303,5.14348
616,26.7812,5.31997
614,24.6984,5.75175
612,22.5036,6.36598
610,20.1857,7.05927
608,17.7259,7.68629
606,15.11,8.10505
604,12.3279,8.235
602,9.4771,8.10209
600,6.72023,7.85824
598,4.35499,7.67592
596,2.57268,7.62073
594,1.42187,7.65429
592,0.771382,7.68727
590,0.44457,7.67872
588,0.29146,7.64077
586,0.225612,7.58352
584,0.20308,7.49707
582,0.202643,7.40701
580,0.213844,7.31816
578,0.230129,7.23202
576,0.246513,7.14752
574,0.260843,7.08026
572,0.270555,7.01681
570,0.27611,6.94576
568,0.276948,6.89687
566,0.273862,6.84234
564,0.26747,6.79187
562,0.258917,6.74588
560,0.248985,6.7045
558,0.237924,6.66721
556,0.226374,6.63438
554,0.215475,6.60652
552,0.204356,6.58297
550,0.193571,6.55834
548,0.183087,6.54315
546,0.173263,6.53367
544,0.163253,6.5297
542,0.153932,6.52857
540,0.144702,6.53203
538,0.13542,6.54207
536,0.126355,6.5568
534,0.117591,6.57302
532,0.109023,6.59489
530,0.100729,6.62084
528,0.0929877,6.64233
526,0.0851475,6.68241
524,0.0779446,6.71666
522,0.0713922,6.75325
520,0.065458,6.78311
518,0.059619,6.83163
516,0.0544262,6.87283
514,0.0494158,6.90168
512,0.0450611,6.94093
510,0.0410086,6.97715
508,0.0377007,7.01101
506,0.0342438,7.0442
504,0.0311299,7.07413
502,0.0285963,7.10111
500,0.025641,7.12389
498,0.0236063,7.14361
496,0.0213998,7.15009
494,0.0195802,7.16084
492,0.0176476,7.16609
490,0.0160417,7.16193
488,0.0149846,7.15787
486,0.0138401,7.1435
484,0.0123277,7.12313
482,0.0116628,7.09702
480,0.0109146,7.05505
478,0.01027018,7.02151
476,0.009778508,6.97498
474,0.009193003,6.92117
472,0.009050216,6.86096
470,0.008303069,6.78704
468,0.008405248,6.71676
466,0.008275715,6.64713
464,0.00814148,6.56393
462,0.007862934,6.48557
460,0.008026144,6.40722
458,0.008169489,6.33697
456,0.007771688,6.25426
454,0.007891302,6.18012
452,0.007823491,6.11236
450,0.007955587,6.05276
448,0.007809095,6.00194
446,0.007930649,5.95572
444,0.008041383,5.9162
442,0.007952396,5.88825
440,0.008012909,5.86964
438,0.007588519,5.86104
436,0.007687608,5.8643
434,0.007525153,5.86905
432,0.007715378,5.88122
430,0.007416655,5.9006
428,0.00711279,5.917
426,0.007448744,5.93615
424,0.007297677,5.94822
422,0.006928759,5.95102
420,0.006753521,5.95478
418,0.006615139,5.93778
416,0.006017772,5.90841
414,0.006033456,5.87031
412,0.00578633,5.81518
410,0.005512551,5.75493
408,0.005411341,5.69033
406,0.004897627,5.62103
404,0.00498696,5.57206
402,0.00499967,5.53997
400,0.004942981,5.53652
398,0.004795785,5.56832
396,0.004452449,5.65519
394,0.00497053,5.79081
392,0.004904988,5.98434
390,0.004902706,6.23885
388,0.004635325,6.54939
386,0.004811987,6.89976
384,0.004463362,7.29207
382,0.00442972,7.71406
380,0.004121802,8.16568
378,0.004172412,8.61564
376,0.003815797,9.06285
374,0.003272478,9.48797
372,0.002899359,9.83472
370,0.002046728,10.1034
368,0.001541394,10.2693
366,0.00091713,10.3053
364,0.000599529,10.2065
362,0.000173069,9.96194
360,0.000155207,9.56894
358,2.22E-05,9.08011
356,0.000145582,8.50573
354,0.000239148,7.90776
352,7.92E-05,7.3566
350,4.55E-05,6.89407