Folder: EE535/Lab1/T_R_A Data

File: Wafer3 Transmission Filmetrics.csv
"Wavelength (nm)", "Transmittance (%)"
379.79, 3.255
382.79, 0.264
385.79, -0.146
388.79, -1.24
391.79, 0.176
394.79, 0.452
397.78, -0.35
400.78, 0.62
403.77, 0.451
406.77, 0.614
409.76, -0.108
412.75, -0.25
415.74, 0.348
418.73, -0.193
421.71, 0.204
424.7, -0.05
427.69, -0.24
430.67, 0.061
433.65, 0.171
436.63, 0.071
439.61, 0.217
442.59, 0.141
445.57, 0.106
448.54, 0.045
451.52, 0.061
454.49, 0.092
457.47, 0.042
460.44, -0.128
463.41, 0.059
466.38, 0.023
469.35, 0.118
472.31, 0.085
475.28, -0.039
478.24, 0.031
481.21, 0.039
484.17, 0.068
487.13, 0.01
490.09, 0.028
493.05, -0.085
496, 0.188
498.96, -0.001
501.91, 0.171
504.87, 0.088
507.82, -0.064
510.77, -0.051
513.72, 0.144
516.67, -0.144
519.62, 0.201
522.57, 0.073
525.51, 0.019
528.45, -0.104
531.4, 0.028
534.34, -0.007
537.28, -0.009
540.22, -0.084
543.16, 0.109
546.09, -0.164
549.03, -0.048
551.96, -0.036
554.9, 0.004
557.83, 0.121
560.76, 0.111
563.69, 0.124
566.62, -0.052
569.55, -0.199
572.47, 0.035
575.4, 0.067
578.32, -0.082
581.24, 0.056
584.17, 0.094
587.09, 0.068
590, 0.022
592.92, 0.108
595.84, 0.027
598.75, 0.073
601.67, 0.214
604.58, 0.083
607.49, 0.143
610.4, 0.106
613.31, -0.034
616.22, 0.159
619.13, 0.099
622.03, 0.146
624.94, 0.058
627.84, 0.126
630.74, 0.013
633.65, 0.081
636.55, 0.053
639.44, 0.015
642.34, -0.012
645.24, 0.098
648.13, 0.322
651.03, 0.467
653.92, 0.471
656.81, 0.527
659.7, 0.613
662.59, 0.688
665.48, 0.707
668.37, 0.727
671.25, 0.722
674.13, 0.72
677.02, 0.779
679.9, 0.737
682.78, 0.724
685.66, 0.578
688.54, 0.593
691.42, 0.604
694.29, 0.555
697.17, 0.572
700.04, 0.666
702.91, 0.613
705.78, 0.591
708.65, 0.619
711.52, 0.62
714.39, 0.619
717.26, 0.632
720.12, 0.765
722.99, 1.001
725.85, 1.022
728.71, 1.065
731.57, 1.251
734.43, 1.463
737.29, 2.422
740.14, 6.432
743, 15.385
745.85, 27.644
748.71, 39.299
751.56, 48.278
754.41, 54.531
757.26, 58.565
760.11, 61.093
762.96, 62.889
765.8, 63.884
768.65, 64.834
771.49, 65.648
774.33, 66.088
777.17, 66.563
780.01, 67.107
782.85, 67.376
785.69, 67.553
788.53, 67.863
791.36, 68.213
794.2, 68.356
797.03, 68.563
799.86, 68.672
802.69, 68.852
805.52, 68.979
808.35, 69.143
811.18, 69.424
814, 69.571
816.83, 69.696
819.65, 69.73
822.47, 69.781
825.29, 69.996
828.11, 70.204
830.93, 70.266
833.75, 70.36
836.57, 70.495
839.38, 70.651
842.19, 70.705
845.01, 70.736
847.82, 70.802
850.63, 70.744
853.44, 70.778
856.25, 70.781
859.05, 70.602
861.86, 70.721
864.66, 71.116
867.47, 71.325
870.27, 71.245
873.07, 71.387
875.87, 71.564
878.67, 71.499
881.46, 71.378
884.26, 71.366
887.05, 71.366
889.85, 71.24
892.64, 71.263
895.43, 71.47
898.22, 71.543
901.01, 71.588
903.8, 71.645
906.58, 71.727
909.37, 71.8
912.15, 71.723
914.93, 71.797
917.72, 71.807
920.5, 71.798
923.28, 71.602
926.05, 71.826
928.83, 71.963
931.61, 71.998
934.38, 72.016
937.15, 72.091
939.92, 72.274
942.7, 72.122
945.47, 72.161
948.23, 72.409
951, 72.617
953.77, 72.576
956.53, 72.328
959.3, 72.23
962.06, 72.332
964.82, 72.544
967.58, 72.679
970.34, 72.707
973.1, 72.766
975.85, 72.747
978.61, 72.948
981.36, 72.985
984.11, 72.934
986.87, 72.755
989.62, 72.553
992.37, 72.666
995.11, 72.693
997.86, 72.729
1000.61, 72.675
1003.35, 72.632
1006.09, 72.6
1008.84, 72.485
1011.58, 72.535
1014.32, 72.544
1017.06, 72.771
1019.79, 72.658
1022.53, 72.809
1025.26, 72.778
1028, 73.053
1030.73, 72.952
1033.46, 72.961
1036.19, 72.951
1038.92, 72.897
1041.65, 72.955
1044.37, 73.125
1047.1, 73.197
1049.82, 73.095
1050.51, 73.052

File: Wafer_1-abs.csv
Wafer#1 11.3mils thick EE535,
Wavelength (nm),Abs
1650,1.00481
1649,1.01122
1648,1.01879
1647,1.02626
1646,1.03415
1645,1.04019
1644,1.04835
1643,1.05538
1642,1.06317
1641,1.07208
1640,1.07989
1639,1.088
1638,1.09606
1637,1.10432
1636,1.11253
1635,1.12159
1634,1.13031
1633,1.1396
1632,1.14969
1631,1.15826
1630,1.16824
1629,1.17727
1628,1.18715
1627,1.19787
1626,1.20635
1625,1.21591
1624,1.22637
1623,1.23725
1622,1.24814
1621,1.25892
1620,1.2699
1619,1.28265
1618,1.2922
1617,1.30518
1616,1.31761
1615,1.33161
1614,1.34423
1613,1.35674
1612,1.37025
1611,1.38264
1610,1.39642
1609,1.41152
1608,1.42636
1607,1.44258
1606,1.45884
1605,1.47701
1604,1.49194
1603,1.5086
1602,1.52583
1601,1.54492
1600,1.56265
1599,1.58287
1598,1.60053
1597,1.62132
1596,1.639
1595,1.66309
1594,1.68564
1593,1.70482
1592,1.73252
1591,1.75576
1590,1.78615
1589,1.81038
1588,1.8342
1587,1.86403
1586,1.89552
1585,1.92197
1584,1.96232
1583,1.99336
1582,2.02849
1581,2.06974
1580,2.1014
1579,2.14112
1578,2.18997
1577,2.24278
1576,2.29076
1575,2.33622
1574,2.40618
1573,2.45382
1572,2.50271
1571,2.57387
1570,2.68995
1569,2.74019
1568,2.78945
1567,2.91516
1566,3.0257
1565,3.12622
1564,3.27614
1563,3.43198
1562,3.42123
1561,3.62271
1560,3.73473
1559,4.49826
1558,3.88358
1557,4.21633
1556,3.98358
1555,4.11718
1554,4.2448
1553,3.81584
1552,10
1551,4.26731
1550,3.76847

File: Wafer_2-abs.csv
Wafer#2 7.8mils thick EE535,
Wavelength (nm),Abs
1050,0.441275
1049,0.446716
1048,0.4518
1047,0.457395
1046,0.462993
1045,0.468558
1044,0.474647
1043,0.480915
1042,0.487059
1041,0.493456
1040,0.499852
1039,0.506436
1038,0.513297
1037,0.52069
1036,0.5278
1035,0.534848
1034,0.542117
1033,0.549343
1032,0.556865
1031,0.564885
1030,0.572596
1029,0.580443
1028,0.588516
1027,0.596997
1026,0.605047
1025,0.613536
1024,0.622116
1023,0.631004
1022,0.639677
1021,0.648831
1020,0.657858
1019,0.666944
1018,0.67624
1017,0.686248
1016,0.695409
1015,0.705024
1014,0.714644
1013,0.724515
1012,0.734915
1011,0.745052
1010,0.755782
1009,0.765811
1008,0.776209
1007,0.787539
1006,0.79817
1005,0.809268
1004,0.820676
1003,0.832352
1002,0.843546
1001,0.854676
1000,0.866157
999,0.878407
998,0.890612
997,0.902296
996,0.914593
995,0.926671
994,0.93877
993,0.95115
992,0.963927
991,0.977409
990,0.990811
989,1.00393
988,1.01652
987,1.03033
986,1.04418
985,1.05843
984,1.07119
983,1.08635
982,1.09974
981,1.11406
980,1.12918
979,1.14611
978,1.16108
977,1.17504
976,1.19043
975,1.2046
974,1.22133
973,1.23827
972,1.25412
971,1.26937
970,1.28633
969,1.30187
968,1.31943
967,1.33483
966,1.35327
965,1.36888
964,1.38664
963,1.4046
962,1.42168
961,1.44204
960,1.46354
959,1.47988
958,1.49824
957,1.51606
956,1.53492
955,1.55675
954,1.57355
953,1.59418
952,1.61549
951,1.63502
950,1.65565
949,1.67607
948,1.69402
947,1.71718
946,1.7389
945,1.75528
944,1.78081
943,1.80122
942,1.82591
941,1.84382
940,1.86895
939,1.8943
938,1.9193
937,1.93705
936,1.95991
935,1.97886
934,2.00818
933,2.02899
932,2.05412
931,2.07764
930,2.10618
929,2.12485
928,2.15378
927,2.17453
926,2.19957
925,2.22362
924,2.25989
923,2.28223
922,2.30816
921,2.32771
920,2.36209
919,2.37599
918,2.41949
917,2.45017
916,2.46703
915,2.49255
914,2.54657
913,2.5648
912,2.56835
911,2.60656
910,2.60288
909,2.63881
908,2.67671
907,2.71278
906,2.75776
905,2.77713
904,2.77767
903,2.80529
902,2.84117
901,2.91677
900,2.96856
899,2.94196
898,3.01974
897,3.04972
896,3.02659
895,3.06805
894,3.09157
893,3.15872
892,3.07108
891,3.21356
890,3.22857
889,3.18882
888,3.34168
887,3.2876
886,3.3908
885,3.34681
884,3.43528
883,3.44167
882,3.58755
881,3.38646
880,3.61357
879,3.91932
878,3.75073
877,3.96618
876,3.58508
875,3.71873
874,3.66094
873,3.77433
872,3.86195
871,3.78505
870,3.99985
869,3.56669
868,3.51734
867,10
866,4.07986
865,3.74235
864,4.39641
863,3.55781
862,3.92036
861,3.9596
860,4.92526
859,3.88445
858,3.74824
857,4.45143
856,3.86324
855,4.01222
854,10
853,3.63856
852,4.18971
851,4.05444
850,3.96578