Folder: EE535/Lab2/data

File: aSi_Abs.csv
Absorbance  thin film,
Wavelength (nm),Abs
750,0.386976
748,0.380868
746,0.367771
744,0.347556
742,0.32049
740,0.288148
738,0.253318
736,0.220451
734,0.1942949
732,0.179035
730,0.176387
728,0.185439
726,0.203824
724,0.228657
722,0.257239
720,0.287587
718,0.317743
716,0.346767
714,0.373193
712,0.396258
710,0.414719
708,0.427581
706,0.433387
704,0.431038
702,0.419879
700,0.400048
698,0.373283
696,0.343801
694,0.317688
692,0.30135
690,0.298871
688,0.310627
686,0.333833
684,0.364851
682,0.399906
680,0.436386
678,0.471562
676,0.504061
674,0.532213
672,0.554625
670,0.570165
668,0.577862
666,0.57776
664,0.571264
662,0.561778
660,0.554485
658,0.55464
656,0.565434
654,0.587369
652,0.618116
650,0.654554
648,0.693567
646,0.732657
644,0.769779
642,0.803059
640,0.831933
638,0.85577
636,0.875367
634,0.892225
632,0.909055
630,0.928714
628,0.953707
626,0.985034
624,1.02213
622,1.06351
620,1.1071
618,1.15175
616,1.19541
614,1.23779
612,1.27836
610,1.31786
608,1.35706
606,1.39706
604,1.43916
602,1.48382
600,1.5315
598,1.58156
596,1.63362
594,1.68659
592,1.74033
590,1.79386
588,1.84757
586,1.90124
584,1.95565
582,2.01038
580,2.06562
578,2.12126
576,2.17697
574,2.2325
572,2.28696
570,2.34023
568,2.39168
566,2.44183
564,2.48926
562,2.53434
560,2.57662
558,2.61623
556,2.65284
554,2.68625
552,2.71653
550,2.74404
548,2.76865
546,2.79023
544,2.81012
542,2.82733
540,2.84306
538,2.85683
536,2.86933
534,2.88059
532,2.89096
530,2.9006
528,2.90983
526,2.918
524,2.92579
522,2.93351
520,2.94094
518,2.94784
516,2.95463
514,2.96128
512,2.9679
510,2.97453
508,2.9809
506,2.98687
504,2.99311
502,2.99952
500,3.00546
498,3.01109
496,3.0174
494,3.02334
492,3.02896
490,3.03447
488,3.04015
486,3.0457
484,3.05113
482,3.0565
480,3.06237
478,3.06745
476,3.07275
474,3.07799
472,3.0832
470,3.08803
468,3.09354
466,3.09846
464,3.10377
462,3.10836
460,3.11346
458,3.11884
456,3.12341
454,3.1284
452,3.13281
450,3.13799

File: aSi_R.csv
Reflectance thin film,
Wavelength (nm),%R
2400,45.0988
2393,46.3741
2386,47.5761
2379,48.6444
2372,49.7774
2365,50.7232
2358,51.7152
2351,52.5984
2344,53.4343
2337,54.2796
2330,55.0336
2323,55.6074
2316,56.2869
2309,56.8163
2302,57.3784
2295,57.8128
2288,58.0736
2281,58.2251
2274,58.4611
2267,58.7707
2260,59.0328
2253,59.3198
2246,59.5713
2239,59.8333
2232,59.894
2225,59.7948
2218,59.7278
2211,59.5937
2204,59.3328
2197,59.118
2190,58.7336
2183,58.3258
2176,57.9109
2169,57.2835
2162,56.714
2155,55.9947
2148,55.1494
2141,54.2785
2134,53.3088
2127,52.1855
2120,51.0455
2113,49.7475
2106,48.2915
2099,46.7921
2092,45.1116
2085,43.3314
2078,41.5006
2071,39.4665
2064,37.3558
2057,35.2139
2050,32.8919
2043,30.5587
2036,28.1723
2029,25.7881
2022,23.4043
2015,21.1309
2008,18.9027
2001,17.0169
1994,15.3848
1987,14.0144
1980,12.9733
1973,12.2565
1966,12.0036
1959,12.1632
1952,12.7773
1945,13.7904
1938,15.2027
1931,16.9178
1924,18.8673
1917,21.1061
1910,23.5231
1903,26.0261
1896,28.6908
1889,31.2648
1882,33.8668
1875,36.3009
1868,38.8809
1861,41.2065
1854,43.4212
1847,45.5801
1840,47.5668
1833,49.4699
1826,51.1739
1819,52.7302
1812,54.0819
1805,55.3411
1798,56.4699
1791,57.3995
1784,58.1768
1777,58.7807
1770,59.2479
1763,59.6091
1756,59.8463
1749,59.8644
1742,59.7788
1735,59.4411
1728,59.02
1721,58.3795
1714,57.5308
1707,56.534
1700,55.3376
1693,53.8702
1686,52.1546
1679,50.0679
1672,47.8121
1665,45.215
1658,42.3351
1651,39.2088
1644,35.8468
1637,32.2209
1630,28.4537
1623,24.7602
1616,21.2355
1609,18.0958
1602,15.5927
1595,13.8672
1588,13.1318
1581,13.4007
1574,14.7
1567,16.7739
1560,19.6252
1553,22.9704
1546,26.6152
1539,30.434
1532,34.2977
1525,37.9866
1518,41.5345
1511,44.7695
1504,47.7847
1497,50.3797
1490,52.6846
1483,54.7289
1476,56.3894
1469,57.6615
1462,58.6171
1455,59.305
1448,59.678
1441,59.6199
1434,59.2439
1427,58.4791
1420,57.2967
1413,55.6495
1406,53.4904
1399,50.8916
1392,47.4999
1385,43.6071
1378,38.9372
1371,34.0157
1364,28.6289
1357,23.363
1350,18.8556
1343,15.6971
1336,14.3966
1329,15.0485
1322,17.6064
1315,21.5776
1308,26.4144
1301,31.6667
1294,36.8273
1287,41.712
1280,46.0807
1273,49.986
1266,53.217
1259,55.7068
1252,57.6788
1245,58.9429
1238,59.6526
1231,59.6266
1224,58.8499
1217,57.2366
1210,54.7878
1203,51.1929
1196,46.3663
1189,40.3791
1182,33.5086
1175,26.3062
1168,19.9856
1161,16.1556
1154,15.8184
1147,18.9499
1140,24.5422
1133,31.244
1126,38.0091
1119,44.1406
1112,49.3662
1105,53.5193
1098,56.5913
1091,58.5847
1084,59.3029
1077,59.0373
1070,57.0921
1063,53.6809
1056,48.2484
1049,40.6013
1042,31.513
1035,22.7324
1028,17.548
1021,18.2237
1014,23.9181
1007,32.1101
1000,40.4624
993,47.6832
986,53.3146
979,57.1072
972,59.1508
965,59.2176
958,57.001
951,52.0146
944,43.7079
937,33.065
930,23.6741
923,20.4361
916,24.4302
909,32.551
902,41.3988
895,48.6225
888,53.2817
881,55.265
874,56.9632
867,52.5069
860,45.5582
853,37.2384
846,31.1225
839,30.2089
832,34.8096
825,42.1445
818,49.3676
811,53.5133
804,53.5106
797,48.9974
790,32.2604
783,20.4509
776,28.1067
769,43.2446
762,54.621
755,59.4704
748,56.51
741,42.2988
734,23.2338
727,27.8251
720,44.7481
713,55.6527
706,56.1846
699,42.4744
692,23.6786
685,32.0512
678,47.0841
671,51.032
664,39.8037
657,27.0706
650,35.1914
643,43.6819
636,40.4273
629,32.9007
622,35.6809
615,39.7536
608,37.9359
601,36.4402
594,38.1116
587,38.5959
580,38.1812
573,38.6404
566,39.0125
559,39.1694
552,39.4732
545,39.7562
538,40.029
531,40.3167
524,40.6109
517,40.8999
510,41.2111
503,41.5196
496,41.8453
489,42.1778
482,42.5103
475,42.8543
468,43.2208
461,43.5936
454,43.9733
447,44.3714
440,44.7782
433,45.207
426,45.6596
419,46.1239
412,46.633
405,47.1231
400,47.4929

File: aSi_T.csv
Transmission thin film,
Wavelength (nm),%T
2500,76.6894
2492,75.3791
2484,74.1371
2476,72.8663
2468,71.3258
2460,69.8973
2452,68.4748
2444,67.0387
2436,65.5888
2428,64.0517
2420,62.5555
2412,61.225
2404,59.9275
2396,58.5018
2388,57.3156
2380,56.0766
2372,54.9832
2364,53.7851
2356,52.7298
2348,51.6578
2340,50.694
2332,49.6848
2324,48.694
2316,47.8251
2308,46.9287
2300,46.0773
2292,45.4256
2284,44.7058
2276,44.2944
2268,43.7767
2260,43.2768
2252,42.8259
2244,42.5522
2236,42.2544
2228,42.0544
2220,41.9793
2212,41.9844
2204,42.0091
2196,42.1605
2188,42.38
2180,42.7734
2172,43.1196
2164,43.5999
2156,44.2672
2148,44.9037
2140,45.7823
2132,46.6965
2124,47.7357
2116,49.0221
2108,50.2351
2100,51.7604
2092,53.2647
2084,55.0143
2076,56.8468
2068,58.8937
2060,61.0797
2052,63.3169
2044,65.6456
2036,67.9058
2028,70.4893
2020,73.0431
2012,75.3882
2004,77.7749
1996,80.026
1988,81.885
1980,83.3885
1972,84.5706
1964,85.2378
1956,85.49263
1948,85.3023
1940,84.8471
1932,83.6615
1924,82.3879
1916,80.6501
1908,78.6502
1900,76.4425
1892,74.1003
1884,71.5796
1876,69.1024
1868,66.6777
1860,64.1626
1852,61.7174
1844,59.4641
1836,57.2537
1828,55.1465
1820,53.2603
1812,51.4461
1804,49.8724
1796,48.3457
1788,47.1193
1780,45.9296
1772,44.987
1764,44.2613
1756,43.6644
1748,43.3024
1740,43.0461
1732,43.0315
1724,43.2355
1716,43.7617
1708,44.4607
1700,45.3281
1692,46.5662
1684,48.0904
1676,49.9595
1668,52.2179
1660,54.7924
1652,57.6974
1644,61.0371
1636,64.6016
1628,68.292
1620,72.1105
1612,75.6731
1604,78.9209
1596,81.3806
1588,83.161
1580,83.7479
1572,83.4686
1564,82.1317
1556,79.9908
1548,77.1985
1540,73.9658
1532,70.431
1524,66.909
1516,63.3229
1508,60.0358
1500,56.9286
1492,53.9293
1484,51.3396
1476,49.1668
1468,47.2838
1460,45.7825
1452,44.6207
1444,43.9319
1436,43.5989
1428,43.6575
1420,44.2665
1412,45.3524
1404,47.158
1396,49.6182
1388,52.909
1380,56.8197
1372,61.4539
1364,66.7716
1356,72.0425
1348,76.7092
1340,80.1357
1332,81.9726
1324,81.7062
1316,79.6442
1308,76.1219
1300,71.6278
1292,66.956
1284,62.2929
1276,57.7802
1268,53.8254
1260,50.5917
1252,47.8477
1244,45.8154
1236,44.5855
1228,44.0336
1220,44.4115
1212,45.8511
1204,48.3968
1196,52.1432
1188,57.1451
1180,63.7323
1172,70.7587
1164,76.7278
1156,79.9986
1148,79.8636
1140,76.4357
1132,71.3064
1124,65.1495
1116,59.3107
1108,54.1632
1100,49.9193
1092,46.7518
1084,44.7933
1076,44.2791
1068,45.3547
1060,48.4025
1052,53.7014
1044,61.4271
1036,70.3665
1028,77.1772
1020,78.9927
1012,75.1
1004,68.0977
996,60.5664
988,53.8373
980,48.6585
972,45.2708
964,44.0665
956,45.4933
948,50.1253
940,58.7656
932,69.6939
924,76.8872
916,75.3972
908,67.7764
900,58.7288
892,51.1942
884,46.1811
876,44.2591
868,46.1722
860,53.3392
852,64.3193
844,72.4592
836,71.3298
828,63.693
820,54.3549
812,43.1469
804,42.472
796,48.7581
788,63.5789
780,72.2391
772,63.1818
764,50.7213
756,42.7457
748,41.7002
740,51.5006
732,66.0953
724,59.0184
716,45.0789
708,37.4605
700,39.8312
692,49.8792
684,43.1399
676,31.3819
668,26.4683
660,27.8749
652,24.0809
644,17.0055
636,13.3321
628,11.125
620,7.81833
612,5.27243
604,3.64084
596,2.32681
588,1.42227
580,0.860738
572,0.516625
564,0.324332
556,0.222181
548,0.170263
540,0.143142
532,0.128177
524,0.118233
516,0.111006
508,0.103861
500,0.0985546
492,0.09333539
484,0.0886061
476,0.0841849
468,0.0802328
460,0.0768369
452,0.07357277
444,0.0704748
436,0.0676415
428,0.0644775
420,0.0620913
412,0.0596339
404,0.0575152
396,0.0553639
388,0.052799
380,0.0512475
372,0.0495722
364,0.0476081
356,0.0455308
350,0.0442123